{
    "resourceType": "Bundle",
    "type": "collection",
    "entry": [
        {
            "resource": {
                "resourceType": "Patient",
                "id": "pat1"
            }
        },
        {
            "resource": {
                "resourceType": "MedicationAdministration",
                "id": "medadmin1",
                "status": "completed",
                "medicationReference": {
                    "reference": "Medication/med1"
                },
                "subject": {
                    "reference": "Patient/pat1"
                },
                "effectivePeriod": {
                    "start": "2019-01-16T12:30:00-07:00",
                    "end": "2019-01-16T13:00:00-07:00"
                }
            }
        },
        {
            "resource": {
                "resourceType": "Medication",
                "id": "med1",
                "code": {
                    "coding": [
                        {
                            "system": "http://example.com/sys1",
                            "code": "456"
                        }
                    ]
                }
            }
        }
    ]
}