{
  "resourceType": "MeasureReport",
  "contained": [
    {
      "resourceType": "Observation",
      "id": "sde-observation-sde-race-coding-2054-5",
      "extension": [
        {
          "url": "http://hl7.org/fhir/StructureDefinition/cqf-measureInfo",
          "extension": [
            {
              "url": "measure",
              "valueCanonical": "http://hl7.org/fhir/us/cqfmeasures/Measure/EXM130"
            },
            {
              "url": "populationId",
              "valueString": "sde-race"
            }
          ]
        }
      ],
      "status": "final",
      "code": {
        "coding": [
          {
            "code": "2054-5"
          }
        ]
      },
      "valueInteger": 1
    },
    {
      "resourceType": "Observation",
      "id": "sde-observation-sde-sex-code-f",
      "extension": [
        {
          "url": "http://hl7.org/fhir/StructureDefinition/cqf-measureInfo",
          "extension": [
            {
              "url": "measure",
              "valueCanonical": "http://hl7.org/fhir/us/cqfmeasures/Measure/EXM130"
            },
            {
              "url": "populationId",
              "valueString": "sde-sex"
            }
          ]
        }
      ],
      "status": "final",
      "code": {
        "coding": [
          {
            "code": "F"
          }
        ]
      },
      "valueInteger": 1
    },
    {
      "resourceType": "Observation",
      "id": "sde-observation-sde-ethnicity-coding-2135-2",
      "extension": [
        {
          "url": "http://hl7.org/fhir/StructureDefinition/cqf-measureInfo",
          "extension": [
            {
              "url": "measure",
              "valueCanonical": "http://hl7.org/fhir/us/cqfmeasures/Measure/EXM130"
            },
            {
              "url": "populationId",
              "valueString": "sde-ethnicity"
            }
          ]
        }
      ],
      "status": "final",
      "code": {
        "coding": [
          {
            "code": "2135-2"
          }
        ]
      },
      "valueInteger": 1
    },
    {
      "resourceType": "Observation",
      "id": "sde-observation-sde-ethnicity-coding-2186-5",
      "extension": [
        {
          "url": "http://hl7.org/fhir/StructureDefinition/cqf-measureInfo",
          "extension": [
            {
              "url": "measure",
              "valueCanonical": "http://hl7.org/fhir/us/cqfmeasures/Measure/EXM130"
            },
            {
              "url": "populationId",
              "valueString": "sde-ethnicity"
            }
          ]
        }
      ],
      "status": "final",
      "code": {
        "coding": [
          {
            "code": "2186-5"
          }
        ]
      },
      "valueInteger": 1
    },
    {
      "resourceType": "Observation",
      "id": "sde-observation-sde-race-coding-2106-3",
      "extension": [
        {
          "url": "http://hl7.org/fhir/StructureDefinition/cqf-measureInfo",
          "extension": [
            {
              "url": "measure",
              "valueCanonical": "http://hl7.org/fhir/us/cqfmeasures/Measure/EXM130"
            },
            {
              "url": "populationId",
              "valueString": "sde-race"
            }
          ]
        }
      ],
      "status": "final",
      "code": {
        "coding": [
          {
            "code": "2106-3"
          }
        ]
      },
      "valueInteger": 1
    }
  ],
  "extension": [
    {
      "url": "http://hl7.org/fhir/5.0/StructureDefinition/extension-MeasureReport.population.description",
      "valueString": "Percentage of adults 50-75 years of age who had appropriate screening for colorectal cancer"
    }
  ],
  "status": "complete",
  "type": "summary",
  "measure": "http://hl7.org/fhir/us/cqfmeasures/Measure/EXM130",
  "date": "2022-06-02T10:44:10-06:00",
  "period": {
    "start": "2017-12-31T17:00:00-07:00",
    "end": "2020-12-30T17:00:00-07:00"
  },
  "improvementNotation": {
    "coding": [
      {
        "system": "http://terminology.hl7.org/CodeSystem/measure-improvement-notation",
        "code": "increase"
      }
    ]
  },
  "group": [
    {
      "id": "group-1",
      "population": [
        {
          "code": {
            "coding": [
              {
                "system": "http://terminology.hl7.org/CodeSystem/measure-population",
                "code": "initial-population",
                "display": "Initial Population"
              }
            ]
          },
          "count": 0
        },
        {
          "code": {
            "coding": [
              {
                "system": "http://terminology.hl7.org/CodeSystem/measure-population",
                "code": "numerator",
                "display": "Numerator"
              }
            ]
          },
          "count": 0
        },
        {
          "code": {
            "coding": [
              {
                "system": "http://terminology.hl7.org/CodeSystem/measure-population",
                "code": "denominator",
                "display": "Denominator"
              }
            ]
          },
          "count": 0
        },
        {
          "code": {
            "coding": [
              {
                "system": "http://terminology.hl7.org/CodeSystem/measure-population",
                "code": "denominator-exclusion",
                "display": "Denominator Exclusion"
              }
            ]
          },
          "count": 0
        }
      ]
    }
  ],
  "evaluatedResource": [
    {
      "reference": "#sde-observation-sde-ethnicity-coding-2186-5"
    },
    {
      "reference": "#sde-observation-sde-race-coding-2106-3"
    },
    {
      "reference": "#sde-observation-sde-sex-code-f"
    }
  ]
}
