{"resourceType":"MeasureReport","contained":[{"resourceType":"Observation","id":"0fb39129-3d0e-4c76-a52e-eec78e327c6c","extension":[{"url":"http://hl7.org/fhir/StructureDefinition/cqf-measureInfo","extension":[{"url":"measure","valueCanonical":"http://hl7.org/fhir/us/cqfmeasures/Measure/EXM104"}]}],"status":"final","code":{"coding":[{"code":"2186-5"}]},"valueInteger":1},{"resourceType":"Observation","id":"fcd43f2d-c40f-4df0-9cc8-fbb538341a60","extension":[{"url":"http://hl7.org/fhir/StructureDefinition/cqf-measureInfo","extension":[{"url":"measure","valueCanonical":"http://hl7.org/fhir/us/cqfmeasures/Measure/EXM104"}]}],"status":"final","code":{"coding":[{"code":"2106-3"}]},"valueInteger":1},{"resourceType":"Observation","id":"983adf59-fdb9-41b5-94d8-d5289aa7dfce","extension":[{"url":"http://hl7.org/fhir/StructureDefinition/cqf-measureInfo","extension":[{"url":"measure","valueCanonical":"http://hl7.org/fhir/us/cqfmeasures/Measure/EXM104"}]}],"status":"final","code":{"coding":[{"code":"F"}]},"valueInteger":1}],"extension":[{"url":"http://hl7.org/fhir/5.0/StructureDefinition/extension-MeasureReport.population.description","valueString":"Ischemic stroke patients prescribed or continuing to take antithrombotic therapy at hospital discharge"},{"url":"http://hl7.org/fhir/us/davinci-deqm/StructureDefinition/extension-supplementalData","valueReference":{"reference":"#0fb39129-3d0e-4c76-a52e-eec78e327c6c"}},{"url":"http://hl7.org/fhir/us/davinci-deqm/StructureDefinition/extension-supplementalData","valueReference":{"reference":"#fcd43f2d-c40f-4df0-9cc8-fbb538341a60"}},{"url":"http://hl7.org/fhir/us/davinci-deqm/StructureDefinition/extension-supplementalData","valueReference":{"reference":"#983adf59-fdb9-41b5-94d8-d5289aa7dfce"}}],"status":"complete","type":"summary","measure":"http://hl7.org/fhir/us/cqfmeasures/Measure/EXM104","date":"2022-10-11T12:42:21-06:00","period":{"start":"2018-12-31T17:00:00-07:00","end":"2019-12-31T17:00:00-07:00"},"improvementNotation":{"coding":[{"system":"http://terminology.hl7.org/CodeSystem/measure-improvement-notation","code":"increase"}]},"group":[{"id":"group-1","population":[{"code":{"coding":[{"system":"http://terminology.hl7.org/CodeSystem/measure-population","code":"initial-population","display":"Initial Population"}]},"count":0},{"code":{"coding":[{"system":"http://terminology.hl7.org/CodeSystem/measure-population","code":"numerator","display":"Numerator"}]},"count":0},{"code":{"coding":[{"system":"http://terminology.hl7.org/CodeSystem/measure-population","code":"denominator","display":"Denominator"}]},"count":0},{"code":{"coding":[{"system":"http://terminology.hl7.org/CodeSystem/measure-population","code":"denominator-exclusion","display":"Denominator Exclusion"}]},"count":0},{"code":{"coding":[{"system":"http://terminology.hl7.org/CodeSystem/measure-population","code":"denominator-exception","display":"Denominator Exception"}]},"count":0}]}]}