{"resourceType":"MeasureReport","contained":[{"resourceType":"Observation","id":"b5d16a2b-7681-498b-a74f-c0892e53a381","extension":[{"url":"http://hl7.org/fhir/StructureDefinition/cqf-measureInfo","extension":[{"url":"measure","valueCanonical":"http://hl7.org/fhir/us/cqfmeasures/Measure/EXM105"}]}],"status":"final","code":{"coding":[{"code":"2186-5"}]},"valueInteger":1},{"resourceType":"Observation","id":"fddc7a7e-494d-4d2c-9907-e9f3c3764cb1","extension":[{"url":"http://hl7.org/fhir/StructureDefinition/cqf-measureInfo","extension":[{"url":"measure","valueCanonical":"http://hl7.org/fhir/us/cqfmeasures/Measure/EXM105"}]}],"status":"final","code":{"coding":[{"code":"2106-3"}]},"valueInteger":1},{"resourceType":"Observation","id":"1860f7f7-1bc1-4ef6-952b-cfe56480714c","extension":[{"url":"http://hl7.org/fhir/StructureDefinition/cqf-measureInfo","extension":[{"url":"measure","valueCanonical":"http://hl7.org/fhir/us/cqfmeasures/Measure/EXM105"}]}],"status":"final","code":{"coding":[{"code":"F"}]},"valueInteger":1}],"extension":[{"url":"http://hl7.org/fhir/5.0/StructureDefinition/extension-MeasureReport.population.description","valueString":"Ischemic stroke patients who are prescribed or continuing to take statin medication at hospital discharge"},{"url":"http://hl7.org/fhir/us/davinci-deqm/StructureDefinition/extension-supplementalData","valueReference":{"reference":"#b5d16a2b-7681-498b-a74f-c0892e53a381"}},{"url":"http://hl7.org/fhir/us/davinci-deqm/StructureDefinition/extension-supplementalData","valueReference":{"reference":"#fddc7a7e-494d-4d2c-9907-e9f3c3764cb1"}},{"url":"http://hl7.org/fhir/us/davinci-deqm/StructureDefinition/extension-supplementalData","valueReference":{"reference":"#1860f7f7-1bc1-4ef6-952b-cfe56480714c"}}],"status":"complete","type":"summary","measure":"http://hl7.org/fhir/us/cqfmeasures/Measure/EXM105","date":"2022-10-11T12:42:21-06:00","period":{"start":"2018-12-31T17:00:00-07:00","end":"2019-12-31T17:00:00-07:00"},"improvementNotation":{"coding":[{"system":"http://terminology.hl7.org/CodeSystem/measure-improvement-notation","code":"increase"}]},"group":[{"id":"group-1","population":[{"code":{"coding":[{"system":"http://terminology.hl7.org/CodeSystem/measure-population","code":"initial-population","display":"Initial Population"}]},"count":0},{"code":{"coding":[{"system":"http://terminology.hl7.org/CodeSystem/measure-population","code":"numerator","display":"Numerator"}]},"count":0},{"code":{"coding":[{"system":"http://terminology.hl7.org/CodeSystem/measure-population","code":"denominator","display":"Denominator"}]},"count":0},{"code":{"coding":[{"system":"http://terminology.hl7.org/CodeSystem/measure-population","code":"denominator-exclusion","display":"Denominator Exclusion"}]},"count":0},{"code":{"coding":[{"system":"http://terminology.hl7.org/CodeSystem/measure-population","code":"denominator-exception","display":"Denominator Exception"}]},"count":0}]}]}