{"resourceType":"MeasureReport","contained":[{"resourceType":"Observation","id":"cf1557b6-cf5a-4a6f-a97c-aa325fc66b84","extension":[{"url":"http://hl7.org/fhir/StructureDefinition/cqf-measureInfo","extension":[{"url":"measure","valueCanonical":"http://hl7.org/fhir/us/cqfmeasures/Measure/EXM130"}]}],"status":"final","code":{"coding":[{"code":"2186-5"}]},"valueInteger":1},{"resourceType":"Observation","id":"7f755f46-5824-4a1c-9271-e2e6d623f4eb","extension":[{"url":"http://hl7.org/fhir/StructureDefinition/cqf-measureInfo","extension":[{"url":"measure","valueCanonical":"http://hl7.org/fhir/us/cqfmeasures/Measure/EXM130"}]}],"status":"final","code":{"coding":[{"code":"2106-3"}]},"valueInteger":1},{"resourceType":"Observation","id":"122be573-15d5-4d58-b311-a40dbb3ff937","extension":[{"url":"http://hl7.org/fhir/StructureDefinition/cqf-measureInfo","extension":[{"url":"measure","valueCanonical":"http://hl7.org/fhir/us/cqfmeasures/Measure/EXM130"}]}],"status":"final","code":{"coding":[{"code":"F"}]},"valueInteger":1}],"extension":[{"url":"http://hl7.org/fhir/5.0/StructureDefinition/extension-MeasureReport.population.description","valueString":"Percentage of adults 50-75 years of age who had appropriate screening for colorectal cancer"},{"url":"http://hl7.org/fhir/us/davinci-deqm/StructureDefinition/extension-supplementalData","valueReference":{"reference":"#cf1557b6-cf5a-4a6f-a97c-aa325fc66b84"}},{"url":"http://hl7.org/fhir/us/davinci-deqm/StructureDefinition/extension-supplementalData","valueReference":{"reference":"#7f755f46-5824-4a1c-9271-e2e6d623f4eb"}},{"url":"http://hl7.org/fhir/us/davinci-deqm/StructureDefinition/extension-supplementalData","valueReference":{"reference":"#122be573-15d5-4d58-b311-a40dbb3ff937"}}],"status":"complete","type":"summary","measure":"http://hl7.org/fhir/us/cqfmeasures/Measure/EXM130","date":"2022-10-11T12:42:22-06:00","period":{"start":"2018-12-31T17:00:00-07:00","end":"2019-12-31T17:00:00-07:00"},"improvementNotation":{"coding":[{"system":"http://terminology.hl7.org/CodeSystem/measure-improvement-notation","code":"increase"}]},"group":[{"id":"group-1","population":[{"code":{"coding":[{"system":"http://terminology.hl7.org/CodeSystem/measure-population","code":"initial-population","display":"Initial Population"}]},"count":0},{"code":{"coding":[{"system":"http://terminology.hl7.org/CodeSystem/measure-population","code":"numerator","display":"Numerator"}]},"count":0},{"code":{"coding":[{"system":"http://terminology.hl7.org/CodeSystem/measure-population","code":"denominator","display":"Denominator"}]},"count":0},{"code":{"coding":[{"system":"http://terminology.hl7.org/CodeSystem/measure-population","code":"denominator-exclusion","display":"Denominator Exclusion"}]},"count":0}]}]}