{"resourceType":"MeasureReport","contained":[{"resourceType":"Observation","id":"3906f90a-1966-4db1-9189-c094c5c5d224","extension":[{"url":"http://hl7.org/fhir/StructureDefinition/cqf-measureInfo","extension":[{"url":"measure","valueCanonical":"http://hl7.org/fhir/us/cqfmeasures/Measure/EXM104"}]}],"status":"final","code":{"coding":[{"code":"2106-3"}]},"valueInteger":16},{"resourceType":"Observation","id":"49211e59-4454-418b-8ad6-7483f5dece92","extension":[{"url":"http://hl7.org/fhir/StructureDefinition/cqf-measureInfo","extension":[{"url":"measure","valueCanonical":"http://hl7.org/fhir/us/cqfmeasures/Measure/EXM104"}]}],"status":"final","code":{"coding":[{"code":"2054-5"}]},"valueInteger":3},{"resourceType":"Observation","id":"983adf59-fdb9-41b5-94d8-d5289aa7dfce","extension":[{"url":"http://hl7.org/fhir/StructureDefinition/cqf-measureInfo","extension":[{"url":"measure","valueCanonical":"http://hl7.org/fhir/us/cqfmeasures/Measure/EXM104"}]}],"status":"final","code":{"coding":[{"code":"F"}]},"valueInteger":21},{"resourceType":"Observation","id":"1afa0453-2825-493b-9c03-51a88153379f","extension":[{"url":"http://hl7.org/fhir/StructureDefinition/cqf-measureInfo","extension":[{"url":"measure","valueCanonical":"http://hl7.org/fhir/us/cqfmeasures/Measure/EXM104"}]}],"status":"final","code":{"coding":[{"code":"2186-5"}]},"valueInteger":22},{"resourceType":"Observation","id":"f747aab3-57e0-4dfd-9a0d-f1d85516cde6","extension":[{"url":"http://hl7.org/fhir/StructureDefinition/cqf-measureInfo","extension":[{"url":"measure","valueCanonical":"http://hl7.org/fhir/us/cqfmeasures/Measure/EXM104"}]}],"status":"final","code":{"coding":[{"code":"2135-2"}]},"valueInteger":1},{"resourceType":"Observation","id":"dba24650-8699-457d-8db6-96e3008d93b0","extension":[{"url":"http://hl7.org/fhir/StructureDefinition/cqf-measureInfo","extension":[{"url":"measure","valueCanonical":"http://hl7.org/fhir/us/cqfmeasures/Measure/EXM104"}]}],"status":"final","code":{"coding":[{"code":"F"}]},"valueInteger":1},{"resourceType":"Observation","id":"2ae9ff52-ae6a-4a8f-85ee-6a486b2fedc6","extension":[{"url":"http://hl7.org/fhir/StructureDefinition/cqf-measureInfo","extension":[{"url":"measure","valueCanonical":"http://hl7.org/fhir/us/cqfmeasures/Measure/EXM104"}]}],"status":"final","code":{"coding":[{"code":"2186-5"}]},"valueInteger":1},{"resourceType":"Observation","id":"2a0e057e-0f40-43d9-af36-6fab5dd5bbb7","extension":[{"url":"http://hl7.org/fhir/StructureDefinition/cqf-measureInfo","extension":[{"url":"measure","valueCanonical":"http://hl7.org/fhir/us/cqfmeasures/Measure/EXM104"}]}],"status":"final","code":{"coding":[{"code":"F"}]},"valueInteger":1},{"resourceType":"Observation","id":"5a33ad08-1be0-4622-b3e8-9b47e7ef793f","extension":[{"url":"http://hl7.org/fhir/StructureDefinition/cqf-measureInfo","extension":[{"url":"measure","valueCanonical":"http://hl7.org/fhir/us/cqfmeasures/Measure/EXM104"}]}],"status":"final","code":{"coding":[{"code":"2106-3"}]},"valueInteger":1},{"resourceType":"Observation","id":"456925e1-b3dd-4ed5-b071-ff24191d4c37","extension":[{"url":"http://hl7.org/fhir/StructureDefinition/cqf-measureInfo","extension":[{"url":"measure","valueCanonical":"http://hl7.org/fhir/us/cqfmeasures/Measure/EXM104"}]}],"status":"final","code":{"coding":[{"code":"2186-5"}]},"valueInteger":1}],"extension":[{"url":"http://hl7.org/fhir/us/davinci-deqm/StructureDefinition/extension-supplementalData","valueReference":{"reference":"#dba24650-8699-457d-8db6-96e3008d93b0"}},{"url":"http://hl7.org/fhir/us/davinci-deqm/StructureDefinition/extension-supplementalData","valueReference":{"reference":"#3906f90a-1966-4db1-9189-c094c5c5d224"}},{"url":"http://hl7.org/fhir/us/davinci-deqm/StructureDefinition/extension-supplementalData","valueReference":{"reference":"#2ae9ff52-ae6a-4a8f-85ee-6a486b2fedc6"}},{"url":"http://hl7.org/fhir/us/davinci-deqm/StructureDefinition/extension-supplementalData","valueReference":{"reference":"#983adf59-fdb9-41b5-94d8-d5289aa7dfce"}},{"url":"http://hl7.org/fhir/us/davinci-deqm/StructureDefinition/extension-supplementalData","valueReference":{"reference":"#5a33ad08-1be0-4622-b3e8-9b47e7ef793f"}},{"url":"http://hl7.org/fhir/5.0/StructureDefinition/extension-MeasureReport.population.description","valueString":"Ischemic stroke patients prescribed or continuing to take antithrombotic therapy at hospital discharge"},{"url":"http://hl7.org/fhir/us/davinci-deqm/StructureDefinition/extension-supplementalData","valueReference":{"reference":"#49211e59-4454-418b-8ad6-7483f5dece92"}},{"url":"http://hl7.org/fhir/us/davinci-deqm/StructureDefinition/extension-supplementalData","valueReference":{"reference":"#f747aab3-57e0-4dfd-9a0d-f1d85516cde6"}},{"url":"http://hl7.org/fhir/us/davinci-deqm/StructureDefinition/extension-supplementalData","valueReference":{"reference":"#1afa0453-2825-493b-9c03-51a88153379f"}}],"status":"complete","type":"summary","measure":"http://hl7.org/fhir/us/cqfmeasures/Measure/EXM104","date":"2022-10-11T12:42:21-06:00","period":{"start":"2018-12-31T17:00:00-07:00","end":"2019-12-31T17:00:00-07:00"},"improvementNotation":{"coding":[{"system":"http://terminology.hl7.org/CodeSystem/measure-improvement-notation","code":"increase"}]},"group":[{"id":"group-1","population":[{"code":{"coding":[{"system":"http://terminology.hl7.org/CodeSystem/measure-population","code":"initial-population","display":"Initial Population"}]},"count":0},{"code":{"coding":[{"system":"http://terminology.hl7.org/CodeSystem/measure-population","code":"numerator","display":"Numerator"}]},"count":0},{"code":{"coding":[{"system":"http://terminology.hl7.org/CodeSystem/measure-population","code":"denominator","display":"Denominator"}]},"count":0},{"code":{"coding":[{"system":"http://terminology.hl7.org/CodeSystem/measure-population","code":"denominator-exclusion","display":"Denominator Exclusion"}]},"count":0},{"code":{"coding":[{"system":"http://terminology.hl7.org/CodeSystem/measure-population","code":"denominator-exception","display":"Denominator Exception"}]},"count":0}]}]}