{"resourceType":"MeasureReport","contained":[{"resourceType":"Observation","id":"f8e7f5e8-6616-44ed-bab1-d439e14255ce","extension":[{"url":"http://hl7.org/fhir/StructureDefinition/cqf-measureInfo","extension":[{"url":"measure","valueCanonical":"http://hl7.org/fhir/us/cqfmeasures/Measure/EXM105"}]}],"status":"final","code":{"coding":[{"code":"2135-2"}]},"valueInteger":1},{"resourceType":"Observation","id":"522c55cb-a57b-4759-8846-915a8acec07f","extension":[{"url":"http://hl7.org/fhir/StructureDefinition/cqf-measureInfo","extension":[{"url":"measure","valueCanonical":"http://hl7.org/fhir/us/cqfmeasures/Measure/EXM105"}]}],"status":"final","code":{"coding":[{"code":"2106-3"}]},"valueInteger":1},{"resourceType":"Observation","id":"dedb38cd-82c3-45c6-bf3b-76b37e393149","extension":[{"url":"http://hl7.org/fhir/StructureDefinition/cqf-measureInfo","extension":[{"url":"measure","valueCanonical":"http://hl7.org/fhir/us/cqfmeasures/Measure/EXM105"}]}],"status":"final","code":{"coding":[{"code":"F"}]},"valueInteger":1}],"extension":[{"url":"http://hl7.org/fhir/5.0/StructureDefinition/extension-MeasureReport.population.description","valueString":"Ischemic stroke patients who are prescribed or continuing to take statin medication at hospital discharge"},{"url":"http://hl7.org/fhir/us/davinci-deqm/StructureDefinition/extension-supplementalData","valueReference":{"reference":"#f8e7f5e8-6616-44ed-bab1-d439e14255ce"}},{"url":"http://hl7.org/fhir/us/davinci-deqm/StructureDefinition/extension-supplementalData","valueReference":{"reference":"#522c55cb-a57b-4759-8846-915a8acec07f"}},{"url":"http://hl7.org/fhir/us/davinci-deqm/StructureDefinition/extension-supplementalData","valueReference":{"reference":"#dedb38cd-82c3-45c6-bf3b-76b37e393149"}}],"status":"complete","type":"summary","measure":"http://hl7.org/fhir/us/cqfmeasures/Measure/EXM105","date":"2022-10-11T12:42:21-06:00","period":{"start":"2018-12-31T17:00:00-07:00","end":"2019-12-31T17:00:00-07:00"},"improvementNotation":{"coding":[{"system":"http://terminology.hl7.org/CodeSystem/measure-improvement-notation","code":"increase"}]},"group":[{"id":"group-1","population":[{"code":{"coding":[{"system":"http://terminology.hl7.org/CodeSystem/measure-population","code":"initial-population","display":"Initial Population"}]},"count":0},{"code":{"coding":[{"system":"http://terminology.hl7.org/CodeSystem/measure-population","code":"numerator","display":"Numerator"}]},"count":0},{"code":{"coding":[{"system":"http://terminology.hl7.org/CodeSystem/measure-population","code":"denominator","display":"Denominator"}]},"count":0},{"code":{"coding":[{"system":"http://terminology.hl7.org/CodeSystem/measure-population","code":"denominator-exclusion","display":"Denominator Exclusion"}]},"count":0},{"code":{"coding":[{"system":"http://terminology.hl7.org/CodeSystem/measure-population","code":"denominator-exception","display":"Denominator Exception"}]},"count":0}]}]}