{"resourceType":"MeasureReport","contained":[{"resourceType":"Observation","id":"0f93f134-dd38-411f-855c-4dfba5d13375","extension":[{"url":"http://hl7.org/fhir/StructureDefinition/cqf-measureInfo","extension":[{"url":"measure","valueCanonical":"http://hl7.org/fhir/us/cqfmeasures/Measure/EXM124"}]}],"status":"final","code":{"coding":[{"code":"2186-5"}]},"valueInteger":1},{"resourceType":"Observation","id":"d6c90cf4-f418-4d41-9670-1f99ceecf4f6","extension":[{"url":"http://hl7.org/fhir/StructureDefinition/cqf-measureInfo","extension":[{"url":"measure","valueCanonical":"http://hl7.org/fhir/us/cqfmeasures/Measure/EXM124"}]}],"status":"final","code":{"coding":[{"code":"2054-5"}]},"valueInteger":1},{"resourceType":"Observation","id":"3156c5c8-6ab4-4b49-82f2-7b81a7deb0c0","extension":[{"url":"http://hl7.org/fhir/StructureDefinition/cqf-measureInfo","extension":[{"url":"measure","valueCanonical":"http://hl7.org/fhir/us/cqfmeasures/Measure/EXM124"}]}],"status":"final","code":{"coding":[{"code":"F"}]},"valueInteger":1}],"extension":[{"url":"http://hl7.org/fhir/5.0/StructureDefinition/extension-MeasureReport.population.description","valueString":"Percentage of women 21-64 years of age who were screened for cervical cancer using either of the following criteria: <br> *  Women age 21-64 who had cervical cytology performed every 3 years <br.*  Women age 30-64 who had cervical cytology/human papillomavirus (HPV) co-testing performed every 5 years"},{"url":"http://hl7.org/fhir/us/davinci-deqm/StructureDefinition/extension-supplementalData","valueReference":{"reference":"#0f93f134-dd38-411f-855c-4dfba5d13375"}},{"url":"http://hl7.org/fhir/us/davinci-deqm/StructureDefinition/extension-supplementalData","valueReference":{"reference":"#d6c90cf4-f418-4d41-9670-1f99ceecf4f6"}},{"url":"http://hl7.org/fhir/us/davinci-deqm/StructureDefinition/extension-supplementalData","valueReference":{"reference":"#3156c5c8-6ab4-4b49-82f2-7b81a7deb0c0"}}],"status":"complete","type":"summary","measure":"http://hl7.org/fhir/us/cqfmeasures/Measure/EXM124","date":"2022-10-11T12:42:22-06:00","period":{"start":"2018-12-31T17:00:00-07:00","end":"2019-12-31T17:00:00-07:00"},"improvementNotation":{"coding":[{"system":"http://terminology.hl7.org/CodeSystem/measure-improvement-notation","code":"increase"}]},"group":[{"id":"group-1","population":[{"code":{"coding":[{"system":"http://terminology.hl7.org/CodeSystem/measure-population","code":"initial-population","display":"Initial Population"}]},"count":0},{"code":{"coding":[{"system":"http://terminology.hl7.org/CodeSystem/measure-population","code":"numerator","display":"Numerator"}]},"count":0},{"code":{"coding":[{"system":"http://terminology.hl7.org/CodeSystem/measure-population","code":"denominator","display":"Denominator"}]},"count":0},{"code":{"coding":[{"system":"http://terminology.hl7.org/CodeSystem/measure-population","code":"denominator-exclusion","display":"Denominator Exclusion"}]},"count":0}]}]}