{"resourceType":"MeasureReport","contained":[{"resourceType":"Observation","id":"200defae-6c0e-4f28-a483-75f42d09ffce","extension":[{"url":"http://hl7.org/fhir/StructureDefinition/cqf-measureInfo","extension":[{"url":"measure","valueCanonical":"http://hl7.org/fhir/us/cqfmeasures/Measure/EXM104"}]}],"status":"final","code":{"coding":[{"code":"2186-5"}]},"valueInteger":1},{"resourceType":"Observation","id":"b9daad1f-b040-4cc8-b209-0ed6da4d72d0","extension":[{"url":"http://hl7.org/fhir/StructureDefinition/cqf-measureInfo","extension":[{"url":"measure","valueCanonical":"http://hl7.org/fhir/us/cqfmeasures/Measure/EXM104"}]}],"status":"final","code":{"coding":[{"code":"2054-5"}]},"valueInteger":1},{"resourceType":"Observation","id":"43a8edde-c758-47bb-b810-0cec292ac527","extension":[{"url":"http://hl7.org/fhir/StructureDefinition/cqf-measureInfo","extension":[{"url":"measure","valueCanonical":"http://hl7.org/fhir/us/cqfmeasures/Measure/EXM104"}]}],"status":"final","code":{"coding":[{"code":"F"}]},"valueInteger":1}],"extension":[{"url":"http://hl7.org/fhir/5.0/StructureDefinition/extension-MeasureReport.population.description","valueString":"Ischemic stroke patients prescribed or continuing to take antithrombotic therapy at hospital discharge"},{"url":"http://hl7.org/fhir/us/davinci-deqm/StructureDefinition/extension-supplementalData","valueReference":{"reference":"#200defae-6c0e-4f28-a483-75f42d09ffce"}},{"url":"http://hl7.org/fhir/us/davinci-deqm/StructureDefinition/extension-supplementalData","valueReference":{"reference":"#b9daad1f-b040-4cc8-b209-0ed6da4d72d0"}},{"url":"http://hl7.org/fhir/us/davinci-deqm/StructureDefinition/extension-supplementalData","valueReference":{"reference":"#43a8edde-c758-47bb-b810-0cec292ac527"}}],"status":"complete","type":"summary","measure":"http://hl7.org/fhir/us/cqfmeasures/Measure/EXM104","date":"2022-10-11T12:42:21-06:00","period":{"start":"2018-12-31T17:00:00-07:00","end":"2019-12-31T17:00:00-07:00"},"improvementNotation":{"coding":[{"system":"http://terminology.hl7.org/CodeSystem/measure-improvement-notation","code":"increase"}]},"group":[{"id":"group-1","population":[{"code":{"coding":[{"system":"http://terminology.hl7.org/CodeSystem/measure-population","code":"initial-population","display":"Initial Population"}]},"count":0},{"code":{"coding":[{"system":"http://terminology.hl7.org/CodeSystem/measure-population","code":"numerator","display":"Numerator"}]},"count":0},{"code":{"coding":[{"system":"http://terminology.hl7.org/CodeSystem/measure-population","code":"denominator","display":"Denominator"}]},"count":0},{"code":{"coding":[{"system":"http://terminology.hl7.org/CodeSystem/measure-population","code":"denominator-exclusion","display":"Denominator Exclusion"}]},"count":0},{"code":{"coding":[{"system":"http://terminology.hl7.org/CodeSystem/measure-population","code":"denominator-exception","display":"Denominator Exception"}]},"count":0}]}]}