{
  "resourceType": "MeasureReport",
  "contained": [
    {
      "resourceType": "Observation",
      "id": "9971abde-0e7f-4aa6-9a69-a5070d52d4f2",
      "extension": [
        {
          "url": "http://hl7.org/fhir/StructureDefinition/cqf-measureInfo",
          "extension": [
            {
              "url": "measure",
              "valueCanonical": "http://hl7.org/fhir/us/cqfmeasures/Measure/EXM130"
            }
          ]
        }
      ],
      "status": "final",
      "code": {
        "coding": [
          {
            "code": "2186-5"
          }
        ]
      },
      "valueInteger": 1
    },
    {
      "resourceType": "Observation",
      "id": "e7ee5a7a-94ee-469a-b48a-508ba28c6a66",
      "extension": [
        {
          "url": "http://hl7.org/fhir/StructureDefinition/cqf-measureInfo",
          "extension": [
            {
              "url": "measure",
              "valueCanonical": "http://hl7.org/fhir/us/cqfmeasures/Measure/EXM130"
            }
          ]
        }
      ],
      "status": "final",
      "code": {
        "coding": [
          {
            "code": "2106-3"
          }
        ]
      },
      "valueInteger": 1
    },
    {
      "resourceType": "Observation",
      "id": "5cec1cee-976d-4316-a01b-f15af8000d62",
      "extension": [
        {
          "url": "http://hl7.org/fhir/StructureDefinition/cqf-measureInfo",
          "extension": [
            {
              "url": "measure",
              "valueCanonical": "http://hl7.org/fhir/us/cqfmeasures/Measure/EXM130"
            }
          ]
        }
      ],
      "status": "final",
      "code": {
        "coding": [
          {
            "code": "F"
          }
        ]
      },
      "valueInteger": 1
    },
    {
      "resourceType": "Observation",
      "id": "976dcac8-1c6c-445a-977e-a70b2a2b49ed",
      "extension": [
        {
          "url": "http://hl7.org/fhir/StructureDefinition/cqf-measureInfo",
          "extension": [
            {
              "url": "measure",
              "valueCanonical": "http://hl7.org/fhir/us/cqfmeasures/Measure/EXM130"
            }
          ]
        }
      ],
      "status": "final",
      "code": {
        "coding": [
          {
            "code": "2106-3"
          }
        ]
      },
      "valueInteger": 1
    },
    {
      "resourceType": "Observation",
      "id": "f4aaff6f-b223-4df7-8869-854f0218881f",
      "extension": [
        {
          "url": "http://hl7.org/fhir/StructureDefinition/cqf-measureInfo",
          "extension": [
            {
              "url": "measure",
              "valueCanonical": "http://hl7.org/fhir/us/cqfmeasures/Measure/EXM130"
            }
          ]
        }
      ],
      "status": "final",
      "code": {
        "coding": [
          {
            "code": "2186-5"
          }
        ]
      },
      "valueInteger": 1
    },
    {
      "resourceType": "Observation",
      "id": "a79c0365-d43d-4f88-8257-c09fa95af798",
      "extension": [
        {
          "url": "http://hl7.org/fhir/StructureDefinition/cqf-measureInfo",
          "extension": [
            {
              "url": "measure",
              "valueCanonical": "http://hl7.org/fhir/us/cqfmeasures/Measure/EXM130"
            }
          ]
        }
      ],
      "status": "final",
      "code": {
        "coding": [
          {
            "code": "2186-5"
          }
        ]
      },
      "valueInteger": 1
    },
    {
      "resourceType": "Observation",
      "id": "65f2838d-49b3-4ad4-8af9-b9b4a712b944",
      "extension": [
        {
          "url": "http://hl7.org/fhir/StructureDefinition/cqf-measureInfo",
          "extension": [
            {
              "url": "measure",
              "valueCanonical": "http://hl7.org/fhir/us/cqfmeasures/Measure/EXM130"
            }
          ]
        }
      ],
      "status": "final",
      "code": {
        "coding": [
          {
            "code": "2106-3"
          }
        ]
      },
      "valueInteger": 1
    },
    {
      "resourceType": "Observation",
      "id": "2f030c70-624d-4000-a97f-c29fd3c911bb",
      "extension": [
        {
          "url": "http://hl7.org/fhir/StructureDefinition/cqf-measureInfo",
          "extension": [
            {
              "url": "measure",
              "valueCanonical": "http://hl7.org/fhir/us/cqfmeasures/Measure/EXM130"
            }
          ]
        }
      ],
      "status": "final",
      "code": {
        "coding": [
          {
            "code": "F"
          }
        ]
      },
      "valueInteger": 1
    },
    {
      "resourceType": "Observation",
      "id": "612d58d6-5682-4cd7-8b5c-6f6dcc063113",
      "extension": [
        {
          "url": "http://hl7.org/fhir/StructureDefinition/cqf-measureInfo",
          "extension": [
            {
              "url": "measure",
              "valueCanonical": "http://hl7.org/fhir/us/cqfmeasures/Measure/EXM130"
            }
          ]
        }
      ],
      "status": "final",
      "code": {
        "coding": [
          {
            "code": "F"
          }
        ]
      },
      "valueInteger": 1
    },
    {
      "resourceType": "Observation",
      "id": "a548445d-b7c9-48ed-b069-8a0cb84fe955",
      "extension": [
        {
          "url": "http://hl7.org/fhir/StructureDefinition/cqf-measureInfo",
          "extension": [
            {
              "url": "measure",
              "valueCanonical": "http://hl7.org/fhir/us/cqfmeasures/Measure/EXM130"
            }
          ]
        }
      ],
      "status": "final",
      "code": {
        "coding": [
          {
            "code": "2186-5"
          }
        ]
      },
      "valueInteger": 1
    },
    {
      "resourceType": "Observation",
      "id": "11ea3ee3-85b2-4b58-94fe-5ad0d77ff8ec",
      "extension": [
        {
          "url": "http://hl7.org/fhir/StructureDefinition/cqf-measureInfo",
          "extension": [
            {
              "url": "measure",
              "valueCanonical": "http://hl7.org/fhir/us/cqfmeasures/Measure/EXM130"
            }
          ]
        }
      ],
      "status": "final",
      "code": {
        "coding": [
          {
            "code": "2054-5"
          }
        ]
      },
      "valueInteger": 1
    },
    {
      "resourceType": "Observation",
      "id": "e2e59332-dac9-4962-914d-e4a97a0622ca",
      "extension": [
        {
          "url": "http://hl7.org/fhir/StructureDefinition/cqf-measureInfo",
          "extension": [
            {
              "url": "measure",
              "valueCanonical": "http://hl7.org/fhir/us/cqfmeasures/Measure/EXM130"
            }
          ]
        }
      ],
      "status": "final",
      "code": {
        "coding": [
          {
            "code": "2054-5"
          }
        ]
      },
      "valueInteger": 1
    },
    {
      "resourceType": "Observation",
      "id": "e8ab7489-ab25-44b5-8467-83b2b4938dbb",
      "extension": [
        {
          "url": "http://hl7.org/fhir/StructureDefinition/cqf-measureInfo",
          "extension": [
            {
              "url": "measure",
              "valueCanonical": "http://hl7.org/fhir/us/cqfmeasures/Measure/EXM130"
            }
          ]
        }
      ],
      "status": "final",
      "code": {
        "coding": [
          {
            "code": "2186-5"
          }
        ]
      },
      "valueInteger": 1
    },
    {
      "resourceType": "Observation",
      "id": "715fc53f-99b5-4f48-8c77-58c33793b186",
      "extension": [
        {
          "url": "http://hl7.org/fhir/StructureDefinition/cqf-measureInfo",
          "extension": [
            {
              "url": "measure",
              "valueCanonical": "http://hl7.org/fhir/us/cqfmeasures/Measure/EXM130"
            }
          ]
        }
      ],
      "status": "final",
      "code": {
        "coding": [
          {
            "code": "F"
          }
        ]
      },
      "valueInteger": 1
    },
    {
      "resourceType": "Observation",
      "id": "2f299d32-a472-485c-a05c-cd05fa23512e",
      "extension": [
        {
          "url": "http://hl7.org/fhir/StructureDefinition/cqf-measureInfo",
          "extension": [
            {
              "url": "measure",
              "valueCanonical": "http://hl7.org/fhir/us/cqfmeasures/Measure/EXM130"
            }
          ]
        }
      ],
      "status": "final",
      "code": {
        "coding": [
          {
            "code": "F"
          }
        ]
      },
      "valueInteger": 1
    },
    {
      "resourceType": "Observation",
      "id": "142d12d7-341e-491c-9ac7-71f820fd17ab",
      "extension": [
        {
          "url": "http://hl7.org/fhir/StructureDefinition/cqf-measureInfo",
          "extension": [
            {
              "url": "measure",
              "valueCanonical": "http://hl7.org/fhir/us/cqfmeasures/Measure/EXM130"
            }
          ]
        }
      ],
      "status": "final",
      "code": {
        "coding": [
          {
            "code": "2106-3"
          }
        ]
      },
      "valueInteger": 1
    },
    {
      "resourceType": "Observation",
      "id": "b691189c-7148-46ad-93fb-186fbdf94481",
      "extension": [
        {
          "url": "http://hl7.org/fhir/StructureDefinition/cqf-measureInfo",
          "extension": [
            {
              "url": "measure",
              "valueCanonical": "http://hl7.org/fhir/us/cqfmeasures/Measure/EXM130"
            }
          ]
        }
      ],
      "status": "final",
      "code": {
        "coding": [
          {
            "code": "2186-5"
          }
        ]
      },
      "valueInteger": 1
    },
    {
      "resourceType": "Observation",
      "id": "92168172-0f31-421d-a470-1d9e6162b8a4",
      "extension": [
        {
          "url": "http://hl7.org/fhir/StructureDefinition/cqf-measureInfo",
          "extension": [
            {
              "url": "measure",
              "valueCanonical": "http://hl7.org/fhir/us/cqfmeasures/Measure/EXM130"
            }
          ]
        }
      ],
      "status": "final",
      "code": {
        "coding": [
          {
            "code": "2186-5"
          }
        ]
      },
      "valueInteger": 1
    },
    {
      "resourceType": "Observation",
      "id": "480b3028-b282-476c-b4ad-7c47f77020fd",
      "extension": [
        {
          "url": "http://hl7.org/fhir/StructureDefinition/cqf-measureInfo",
          "extension": [
            {
              "url": "measure",
              "valueCanonical": "http://hl7.org/fhir/us/cqfmeasures/Measure/EXM130"
            }
          ]
        }
      ],
      "status": "final",
      "code": {
        "coding": [
          {
            "code": "F"
          }
        ]
      },
      "valueInteger": 1
    },
    {
      "resourceType": "Observation",
      "id": "fbf8a96b-7eaa-4516-9c79-a397235f1f77",
      "extension": [
        {
          "url": "http://hl7.org/fhir/StructureDefinition/cqf-measureInfo",
          "extension": [
            {
              "url": "measure",
              "valueCanonical": "http://hl7.org/fhir/us/cqfmeasures/Measure/EXM130"
            }
          ]
        }
      ],
      "status": "final",
      "code": {
        "coding": [
          {
            "code": "2186-5"
          }
        ]
      },
      "valueInteger": 1
    },
    {
      "resourceType": "Observation",
      "id": "d4f52621-d033-4fb0-95b4-9f243328c349",
      "extension": [
        {
          "url": "http://hl7.org/fhir/StructureDefinition/cqf-measureInfo",
          "extension": [
            {
              "url": "measure",
              "valueCanonical": "http://hl7.org/fhir/us/cqfmeasures/Measure/EXM130"
            }
          ]
        }
      ],
      "status": "final",
      "code": {
        "coding": [
          {
            "code": "2106-3"
          }
        ]
      },
      "valueInteger": 1
    },
    {
      "resourceType": "Observation",
      "id": "d00ab616-39ff-40a5-8815-6e21881a0949",
      "extension": [
        {
          "url": "http://hl7.org/fhir/StructureDefinition/cqf-measureInfo",
          "extension": [
            {
              "url": "measure",
              "valueCanonical": "http://hl7.org/fhir/us/cqfmeasures/Measure/EXM130"
            }
          ]
        }
      ],
      "status": "final",
      "code": {
        "coding": [
          {
            "code": "2186-5"
          }
        ]
      },
      "valueInteger": 1
    },
    {
      "resourceType": "Observation",
      "id": "ac8f9477-d998-41ea-847c-217e550d18a7",
      "extension": [
        {
          "url": "http://hl7.org/fhir/StructureDefinition/cqf-measureInfo",
          "extension": [
            {
              "url": "measure",
              "valueCanonical": "http://hl7.org/fhir/us/cqfmeasures/Measure/EXM130"
            }
          ]
        }
      ],
      "status": "final",
      "code": {
        "coding": [
          {
            "code": "F"
          }
        ]
      },
      "valueInteger": 1
    },
    {
      "resourceType": "Observation",
      "id": "7dd62c20-5772-46ac-8513-b5c9ca5673a0",
      "extension": [
        {
          "url": "http://hl7.org/fhir/StructureDefinition/cqf-measureInfo",
          "extension": [
            {
              "url": "measure",
              "valueCanonical": "http://hl7.org/fhir/us/cqfmeasures/Measure/EXM130"
            }
          ]
        }
      ],
      "status": "final",
      "code": {
        "coding": [
          {
            "code": "F"
          }
        ]
      },
      "valueInteger": 1
    },
    {
      "resourceType": "Observation",
      "id": "160798a5-63c8-4196-b9d3-516e1f913fe2",
      "extension": [
        {
          "url": "http://hl7.org/fhir/StructureDefinition/cqf-measureInfo",
          "extension": [
            {
              "url": "measure",
              "valueCanonical": "http://hl7.org/fhir/us/cqfmeasures/Measure/EXM130"
            }
          ]
        }
      ],
      "status": "final",
      "code": {
        "coding": [
          {
            "code": "2135-2"
          }
        ]
      },
      "valueInteger": 1
    },
    {
      "resourceType": "Observation",
      "id": "9f33a920-df8c-498f-9f00-4186e73d5936",
      "extension": [
        {
          "url": "http://hl7.org/fhir/StructureDefinition/cqf-measureInfo",
          "extension": [
            {
              "url": "measure",
              "valueCanonical": "http://hl7.org/fhir/us/cqfmeasures/Measure/EXM130"
            }
          ]
        }
      ],
      "status": "final",
      "code": {
        "coding": [
          {
            "code": "2106-3"
          }
        ]
      },
      "valueInteger": 1
    },
    {
      "resourceType": "Observation",
      "id": "72d7411d-5f0a-4971-9290-7a96a0b7a437",
      "extension": [
        {
          "url": "http://hl7.org/fhir/StructureDefinition/cqf-measureInfo",
          "extension": [
            {
              "url": "measure",
              "valueCanonical": "http://hl7.org/fhir/us/cqfmeasures/Measure/EXM130"
            }
          ]
        }
      ],
      "status": "final",
      "code": {
        "coding": [
          {
            "code": "F"
          }
        ]
      },
      "valueInteger": 1
    },
    {
      "resourceType": "Observation",
      "id": "30156fb3-4f0c-4956-a4d6-8a8cb6611faa",
      "extension": [
        {
          "url": "http://hl7.org/fhir/StructureDefinition/cqf-measureInfo",
          "extension": [
            {
              "url": "measure",
              "valueCanonical": "http://hl7.org/fhir/us/cqfmeasures/Measure/EXM130"
            }
          ]
        }
      ],
      "status": "final",
      "code": {
        "coding": [
          {
            "code": "2106-3"
          }
        ]
      },
      "valueInteger": 1
    },
    {
      "resourceType": "Observation",
      "id": "398a0253-e35d-4c11-8a08-0de9a8251e50",
      "extension": [
        {
          "url": "http://hl7.org/fhir/StructureDefinition/cqf-measureInfo",
          "extension": [
            {
              "url": "measure",
              "valueCanonical": "http://hl7.org/fhir/us/cqfmeasures/Measure/EXM130"
            }
          ]
        }
      ],
      "status": "final",
      "code": {
        "coding": [
          {
            "code": "2106-3"
          }
        ]
      },
      "valueInteger": 1
    },
    {
      "resourceType": "Observation",
      "id": "2fcac24a-1313-4d9e-842f-5e3c269dae42",
      "extension": [
        {
          "url": "http://hl7.org/fhir/StructureDefinition/cqf-measureInfo",
          "extension": [
            {
              "url": "measure",
              "valueCanonical": "http://hl7.org/fhir/us/cqfmeasures/Measure/EXM130"
            }
          ]
        }
      ],
      "status": "final",
      "code": {
        "coding": [
          {
            "code": "F"
          }
        ]
      },
      "valueInteger": 1
    }
  ],
  "extension": [
    {
      "url": "http://hl7.org/fhir/5.0/StructureDefinition/extension-MeasureReport.population.description",
      "valueString": "Percentage of adults 50-75 years of age who had appropriate screening for colorectal cancer"
    },
    {
      "url": "http://hl7.org/fhir/us/davinci-deqm/StructureDefinition/extension-supplementalData",
      "valueReference": {
        "reference": "#fbf8a96b-7eaa-4516-9c79-a397235f1f77"
      }
    },
    {
      "url": "http://hl7.org/fhir/us/davinci-deqm/StructureDefinition/extension-supplementalData",
      "valueReference": {
        "reference": "#976dcac8-1c6c-445a-977e-a70b2a2b49ed"
      }
    },
    {
      "url": "http://hl7.org/fhir/us/davinci-deqm/StructureDefinition/extension-supplementalData",
      "valueReference": {
        "reference": "#7dd62c20-5772-46ac-8513-b5c9ca5673a0"
      }
    },
    {
      "url": "http://hl7.org/fhir/us/davinci-deqm/StructureDefinition/extension-supplementalData",
      "valueReference": {
        "reference": "#160798a5-63c8-4196-b9d3-516e1f913fe2"
      }
    },
    {
      "url": "http://hl7.org/fhir/us/davinci-deqm/StructureDefinition/extension-supplementalData",
      "valueReference": {
        "reference": "#142d12d7-341e-491c-9ac7-71f820fd17ab"
      }
    },
    {
      "url": "http://hl7.org/fhir/us/davinci-deqm/StructureDefinition/extension-supplementalData",
      "valueReference": {
        "reference": "#72d7411d-5f0a-4971-9290-7a96a0b7a437"
      }
    },
    {
      "url": "http://hl7.org/fhir/us/davinci-deqm/StructureDefinition/extension-supplementalData",
      "valueReference": {
        "reference": "#e8ab7489-ab25-44b5-8467-83b2b4938dbb"
      }
    },
    {
      "url": "http://hl7.org/fhir/us/davinci-deqm/StructureDefinition/extension-supplementalData",
      "valueReference": {
        "reference": "#d4f52621-d033-4fb0-95b4-9f243328c349"
      }
    },
    {
      "url": "http://hl7.org/fhir/us/davinci-deqm/StructureDefinition/extension-supplementalData",
      "valueReference": {
        "reference": "#480b3028-b282-476c-b4ad-7c47f77020fd"
      }
    },
    {
      "url": "http://hl7.org/fhir/us/davinci-deqm/StructureDefinition/extension-supplementalData",
      "valueReference": {
        "reference": "#d00ab616-39ff-40a5-8815-6e21881a0949"
      }
    },
    {
      "url": "http://hl7.org/fhir/us/davinci-deqm/StructureDefinition/extension-supplementalData",
      "valueReference": {
        "reference": "#9f33a920-df8c-498f-9f00-4186e73d5936"
      }
    },
    {
      "url": "http://hl7.org/fhir/us/davinci-deqm/StructureDefinition/extension-supplementalData",
      "valueReference": {
        "reference": "#715fc53f-99b5-4f48-8c77-58c33793b186"
      }
    },
    {
      "url": "http://hl7.org/fhir/us/davinci-deqm/StructureDefinition/extension-supplementalData",
      "valueReference": {
        "reference": "#a79c0365-d43d-4f88-8257-c09fa95af798"
      }
    },
    {
      "url": "http://hl7.org/fhir/us/davinci-deqm/StructureDefinition/extension-supplementalData",
      "valueReference": {
        "reference": "#e2e59332-dac9-4962-914d-e4a97a0622ca"
      }
    },
    {
      "url": "http://hl7.org/fhir/us/davinci-deqm/StructureDefinition/extension-supplementalData",
      "valueReference": {
        "reference": "#ac8f9477-d998-41ea-847c-217e550d18a7"
      }
    },
    {
      "url": "http://hl7.org/fhir/us/davinci-deqm/StructureDefinition/extension-supplementalData",
      "valueReference": {
        "reference": "#a548445d-b7c9-48ed-b069-8a0cb84fe955"
      }
    },
    {
      "url": "http://hl7.org/fhir/us/davinci-deqm/StructureDefinition/extension-supplementalData",
      "valueReference": {
        "reference": "#30156fb3-4f0c-4956-a4d6-8a8cb6611faa"
      }
    },
    {
      "url": "http://hl7.org/fhir/us/davinci-deqm/StructureDefinition/extension-supplementalData",
      "valueReference": {
        "reference": "#2f030c70-624d-4000-a97f-c29fd3c911bb"
      }
    },
    {
      "url": "http://hl7.org/fhir/us/davinci-deqm/StructureDefinition/extension-supplementalData",
      "valueReference": {
        "reference": "#f4aaff6f-b223-4df7-8869-854f0218881f"
      }
    },
    {
      "url": "http://hl7.org/fhir/us/davinci-deqm/StructureDefinition/extension-supplementalData",
      "valueReference": {
        "reference": "#11ea3ee3-85b2-4b58-94fe-5ad0d77ff8ec"
      }
    },
    {
      "url": "http://hl7.org/fhir/us/davinci-deqm/StructureDefinition/extension-supplementalData",
      "valueReference": {
        "reference": "#2f299d32-a472-485c-a05c-cd05fa23512e"
      }
    },
    {
      "url": "http://hl7.org/fhir/us/davinci-deqm/StructureDefinition/extension-supplementalData",
      "valueReference": {
        "reference": "#9971abde-0e7f-4aa6-9a69-a5070d52d4f2"
      }
    },
    {
      "url": "http://hl7.org/fhir/us/davinci-deqm/StructureDefinition/extension-supplementalData",
      "valueReference": {
        "reference": "#e7ee5a7a-94ee-469a-b48a-508ba28c6a66"
      }
    },
    {
      "url": "http://hl7.org/fhir/us/davinci-deqm/StructureDefinition/extension-supplementalData",
      "valueReference": {
        "reference": "#5cec1cee-976d-4316-a01b-f15af8000d62"
      }
    },
    {
      "url": "http://hl7.org/fhir/us/davinci-deqm/StructureDefinition/extension-supplementalData",
      "valueReference": {
        "reference": "#b691189c-7148-46ad-93fb-186fbdf94481"
      }
    },
    {
      "url": "http://hl7.org/fhir/us/davinci-deqm/StructureDefinition/extension-supplementalData",
      "valueReference": {
        "reference": "#398a0253-e35d-4c11-8a08-0de9a8251e50"
      }
    },
    {
      "url": "http://hl7.org/fhir/us/davinci-deqm/StructureDefinition/extension-supplementalData",
      "valueReference": {
        "reference": "#2fcac24a-1313-4d9e-842f-5e3c269dae42"
      }
    },
    {
      "url": "http://hl7.org/fhir/us/davinci-deqm/StructureDefinition/extension-supplementalData",
      "valueReference": {
        "reference": "#92168172-0f31-421d-a470-1d9e6162b8a4"
      }
    },
    {
      "url": "http://hl7.org/fhir/us/davinci-deqm/StructureDefinition/extension-supplementalData",
      "valueReference": {
        "reference": "#65f2838d-49b3-4ad4-8af9-b9b4a712b944"
      }
    },
    {
      "url": "http://hl7.org/fhir/us/davinci-deqm/StructureDefinition/extension-supplementalData",
      "valueReference": {
        "reference": "#612d58d6-5682-4cd7-8b5c-6f6dcc063113"
      }
    }
  ],
  "status": "complete",
  "type": "summary",
  "measure": "http://hl7.org/fhir/us/cqfmeasures/Measure/EXM130",
  "date": "2022-09-12T16:17:30-06:00",
  "period": {
    "start": "2018-12-31T17:00:00-07:00",
    "end": "2019-12-31T17:00:00-07:00"
  },
  "improvementNotation": {
    "coding": [
      {
        "system": "http://terminology.hl7.org/CodeSystem/measure-improvement-notation",
        "code": "increase"
      }
    ]
  },
  "group": [
    {
      "id": "group-1",
      "population": [
        {
          "code": {
            "coding": [
              {
                "system": "http://terminology.hl7.org/CodeSystem/measure-population",
                "code": "initial-population",
                "display": "Initial Population"
              }
            ]
          },
          "count": 0
        },
        {
          "code": {
            "coding": [
              {
                "system": "http://terminology.hl7.org/CodeSystem/measure-population",
                "code": "numerator",
                "display": "Numerator"
              }
            ]
          },
          "count": 0
        },
        {
          "code": {
            "coding": [
              {
                "system": "http://terminology.hl7.org/CodeSystem/measure-population",
                "code": "denominator",
                "display": "Denominator"
              }
            ]
          },
          "count": 0
        },
        {
          "code": {
            "coding": [
              {
                "system": "http://terminology.hl7.org/CodeSystem/measure-population",
                "code": "denominator-exclusion",
                "display": "Denominator Exclusion"
              }
            ]
          },
          "count": 0
        }
      ]
    }
  ]
}
